accelX,accelY,accelZ,gyroX,gyroY,gyroZ
-0.013, 0.875, 0.632, 30.55, 39.389, 9.855
0.054, 0.928, 0.587, 37.321, 49.328, 8.962
0.075, 1.011, 0.34, 35.191, -5.885, -2.718
0.031, 0.902, 0.228, 3.237, 43.718, -1.756
0.195, 0.986, 0.195, 15.962, 11.626, -5.237
0.001, 0.942, 0.384, -57.359, 10.557, -16.412
0.025, 0.841, 0.7, -55.244, -35.481, -10.779
0.133, 0.932, 0.543, 66.595, -9.29, 19.947
0.289, 0.926, 0.289, 2.328, 65.191, 17.779
0.292, 0.906, 0.333, 1.969, 76.069, 12.824
-0.702, 0.092, -0.428, 42.527, 38.344, -11.878
-0.631, 0.07, -0.57, 15.977, 58.267, 18.015
0.415, 0.625, 0.815, -63.611, -11.427, -4.305
0.242, 0.332, 1.219, -61.557, 5.13, -13.237
0.212, 0.028, 1.516, 52.947, 29.427, -16.763
0.203, 0.219, 1.349, 81.771, -6.954, -16.183
0.195, 0.469, 1.172, 92.771, -10.069, -18.183
-0.202, 0.145, 1.359, -34.664, 3.794, -21.084
-0.227, 0.047, 1.402, -14.168, -3.481, -0.076
-0.193, 0.015, 1.41, -2.611, 6.244, 0.076
0.065, 0.416, 1.28, 116.427, -37.565, 2.305
0.137, 0.676, 0.802, 92.137, -34.656, 0.351
-0.218, 0.845, 0.755, 16.405, 2.397, 13.092
0.086, 0.958, 0.43, -75.87, 28.58, -9.832
-0.202, 0.236, 1.241, -54.061, -12.282, -16.473
-0.223, 0.186, 1.234, -58.397, 6.977, -13.443
-0.2, -0.003, 1.408, -30.153, 8.412, -2.046
0.032, 0.827, 0.597, -4.237, 14.328, -11.931
0.534, 0.884, 0.089, 61.962, 44.962, 6.076
0.468, 0.761, 0.042, 54.244, 56.252, 4.809
0.475, 0.782, 0.009, 53.405, 65.351, 8.504
0.725, 0.756, -0.106, 17.107, 61.557, 16.206
0.805, 0.788, 0.04, -4.023, 15.534, -0.305
0.829, 0.813, 0.056, 2.511, 9.344, 1.794
-0.88, 0.017, -0.205, 25.053, -2.748, -6.267
-0.972, 0.033, -0.23, 6.802, -39.504, 20.153
0.326, 0.788, 0.712, 76.901, 26.885, -22.069
0.262, 0.738, 0.685, 63.595, 39.359, -17.672
0.144, 0.81, 0.485, 47.985, 87.901, -18.244
0.109, 0.837, 0.458, 45.809, 62.611, -7.954
0.412, 0.473, 1.256, -6.809, -12.282, 0.183
0.527, 0.581, 1.331, 16.542, 2.435, -7.595
0.517, 0.586, 1.346, 39.031, 0.366, -11.298
0.032, 0.99, 0.18, -12.412, 5.802, -10.824
0.04, 0.837, 0.162, -17.397, -25.084, -23.427
-0.044, 0.252, 1.433, -30.328, -8.023, -8.458
0.044, 0.044, 1.578, -29.771, 4.198, 0.389
0.063, -0.028, 1.642, -5.748, 20.55, 3.817
0.002, 0.026, 1.68, 33.565, 1.427, -8.763
0.305, 0.871, 0.031, 117.443, 24.008, -3.313
0.094, 0.607, -0.528, -24.275, 6.16, -5.328
0.121, 0.712, -0.428, -50.351, -1.947, 14.008
0.083, 0.83, -0.22, -79.595, -0.595, -18.321
0.086, 0.927, -0.212, -99.664, 1.183, -10.664
0.093, 0.712, 0.719, 137.298, 3.069, 3.504
0.108, 0.711, 0.663, 111.702, 18.198, -0.595
0.088, 0.732, 0.622, 96.809, 36.344, -11.931
0.021, 1.005, 0.374, 123.053, 23.557, -20.962
-0.173, 0.641, -0.431, -58.137, 21.481, -2.916
-0.19, 0.736, -0.361, -61.504, -9.405, 5.634
0.06, 0.751, 0.739, -19.489, -129.527, 1.176
0.102, 0.751, 0.88, -51.13, -67.603, -1.977
0.273, 0.75, 1.047, -54.924, -22.229, 11.038
0.251, 0.734, 1.115, -49.756, -17.107, 8.962
0.234, 0.802, 0.986, 65.641, 41.053, -18.718
0.106, 0.873, 0.63, -12.237, -30.832, 2.328
0.157, 0.798, 0.945, 67.55, 71.557, -13.443
0.31, 0.304, 1.287, -10.664, 48.481, -9.427
0.107, 0.339, 1.415, -44.046, 14.985, 6.985
-0.008, 0.757, 0.329, -136.031, 66.107, -21.824
-0.031, 0.774, 0.468, -133.511, 51.458, -35.71
-0.337, 0.351, 1.266, -54.863, -37.008, -17.679
-0.012, 0.182, 1.66, -22.687, -32.328, -6.901
-0.051, 0.465, 1.198, 89.107, 60.137, -2.298
-0.185, 0.537, 0.837, 81.863, 70.962, -7.496
-1.005, -0.121, -0.092, 70.29, 13.557, -29.0
-1.109, -0.077, -0.085, -10.053, -35.092, 21.847
-0.404, 0.156, 1.426, -41.489, -18.069, -10.084
-0.445, 0.044, 1.465, 22.244, 16.267, 6.344
-0.443, 0.053, 1.512, 30.206, 20.275, 1.183
-0.476, 0.066, 1.551, 56.588, 5.672, 14.603
0.168, 0.654, 0.492, 120.977, 67.893, 21.809
0.122, 0.655, 1.151, 20.122, -39.053, 19.366
0.344, 0.701, 1.0, 5.313, 24.481, 10.908
0.245, 0.619, 1.111, 22.053, 9.992, -12.336
0.039, 0.722, 1.01, -0.405, 36.366, -19.603
-0.425, 0.198, 1.216, 13.802, -1.687, 6.687
-0.373, 0.231, 1.174, 10.328, -8.076, 9.534
-0.495, 0.212, 1.164, 3.313, 9.519, 3.183
-0.438, 0.164, 1.169, 11.008, 8.595, 3.191
-0.415, 0.164, 1.141, 6.84, 10.466, 6.679
-0.396, 0.237, 1.226, 15.702, 4.099, -7.26
-0.392, 0.226, 1.197, 17.87, 7.969, -5.626
-0.387, 0.238, 1.203, 18.13, -1.053, -7.924
-0.406, 0.249, 1.191, 19.595, 1.527, -8.71
-0.389, 0.186, 1.16, 19.756, -2.748, -4.237
-0.388, 0.223, 1.264, 17.817, -3.229, 2.962
-0.409, 0.229, 1.157, 13.725, 5.336, -14.344
-0.4, 0.137, 1.186, -3.023, 17.649, 0.611
-0.469, 0.164, 1.225, -7.29, 18.351, 4.687
-0.346, 0.142, 1.215, 6.031, 5.969, 2.809
-0.414, 0.117, 1.173, -1.191, 21.229, -10.107
-0.514, 0.129, 1.164, 7.763, -2.489, -2.489
-0.56, 0.047, 1.103, 12.328, 3.527, 6.076
-0.445, 0.108, 1.191, 3.786, 2.176, 6.0
-0.191, 0.301, 1.292, 5.076, 12.069, 6.092
-0.155, 0.247, 1.25, 10.55, 1.695, 6.29
-0.188, 0.225, 1.26, 10.275, 9.985, 1.924
-0.19, 0.261, 1.294, 7.267, 8.664, -1.298
-0.229, 0.239, 1.266, 8.244, 19.58, -5.763
-0.275, 0.204, 1.248, 5.229, 20.603, -5.16
-0.321, 0.211, 1.309, 9.038, 6.511, -4.26
-0.299, 0.241, 1.243, 9.511, 4.687, -0.252
-0.239, 0.246, 1.235, 10.16, 6.511, 0.115
-0.237, 0.249, 1.234, 6.198, 14.015, -0.244
-0.256, 0.231, 1.221, 12.924, -22.924, 5.313
-0.213, 0.252, 1.278, 6.092, 6.122, -0.947
-0.348, 0.231, 1.225, 10.573, 3.336, 3.519
-0.304, 0.249, 1.244, 11.634, -5.168, 6.931
-0.434, 0.2, 1.189, 11.786, 1.824, -1.74
-0.333, 0.248, 1.208, 14.076, -7.244, 5.786
-0.286, 0.224, 1.232, 9.649, 6.061, 2.962
-0.269, 0.234, 1.24, 9.763, 5.725, 0.779
-0.294, 0.185, 1.186, 4.183, 8.214, -0.458
-0.271, 0.224, 1.255, 11.511, 14.183, -0.13
-0.307, 0.191, 1.24, 6.099, 10.008, -4.099
-0.298, 0.231, 1.232, 11.191, 1.374, -0.55
-0.286, 0.185, 1.262, 5.229, 6.427, 0.878
-0.189, 0.045, 1.307, 10.84, 8.672, -1.771
-0.199, 0.012, 1.285, 9.229, 12.557, -2.298
-0.183, 0.15, 1.282, -2.893, 20.893, -13.664
-0.193, 0.082, 1.257, 5.183, 9.29, -4.679
-0.191, 0.335, 1.22, 10.099, 10.42, 0.687
-0.184, 0.344, 1.229, 12.969, 2.489, -2.802
-0.121, 0.723, 0.991, 21.58, -0.206, 1.405
-0.031, 0.921, 0.768, 6.267, 13.244, -1.87
-0.034, 0.865, 0.69, -5.71, -27.893, -9.58
0.062, 0.861, 0.76, -2.748, -37.389, -1.733
-0.009, 0.97, 0.557, 13.863, 2.649, -10.443
-0.057, 0.967, 0.586, -0.031, 17.771, -1.008
0.126, 0.95, 0.502, 13.198, -9.847, -7.359
0.056, 0.928, 0.673, 4.252, 21.969, -0.527
-0.265, 0.932, 0.269, 25.046, 10.168, -8.443
-0.303, 0.933, 0.181, 8.901, 25.305, 1.863
0.041, 0.921, 0.656, 19.618, 33.305, -5.885
0.053, 0.952, 0.527, 11.137, 28.214, 2.458
0.009, 0.969, 0.626, 0.527, 32.443, 11.58
0.05, 0.941, 0.676, 2.496, 43.534, -4.107
-0.21, 0.899, 0.601, -6.763, 7.595, -4.771
-0.343, 0.894, 0.643, 19.0, -18.412, 14.718
-0.284, 0.888, 0.62, 15.29, -13.328, 13.588
0.25, 0.924, 0.593, 13.565, -7.802, -3.634
0.212, 0.939, 0.526, 17.702, 1.496, -4.763
-0.063, 0.877, 0.737, 8.962, 26.489, -10.832
-0.134, 0.864, 0.769, -0.122, 33.611, -14.038
0.156, 0.958, 0.491, -5.374, 14.672, -1.076
0.097, 0.965, 0.609, -2.237, 19.244, -2.351
0.055, 0.959, 0.629, 3.595, 15.611, -4.87
-0.136, 0.963, 0.339, 7.771, 10.649, -16.153
0.129, 0.949, 0.572, 13.328, 2.344, -4.977
-0.027, 0.953, 0.457, -14.557, 36.221, -9.015
-0.048, 0.979, 0.51, 4.916, 33.511, 1.695
-0.141, 0.824, 0.808, -8.206, -1.16, 9.863
-0.111, 0.78, 0.911, -4.718, 17.198, 7.74
-0.097, 0.955, 0.714, 29.557, 0.344, 3.84
-0.123, 0.914, 0.572, 1.863, 16.0, -3.229
-0.185, 0.927, 0.776, -7.489, 11.031, 2.641
-0.106, 0.73, 1.048, 8.237, -4.702, -14.962
-0.112, 0.677, 0.982, -24.565, 23.855, -14.969
-0.26, 0.08, 1.254, -7.55, 18.992, -11.511
-0.238, 0.069, 1.23, 1.802, 15.282, -9.008
-0.314, 0.241, 1.216, -8.672, 17.427, -5.374
-0.324, 0.207, 1.229, -0.878, 10.458, -4.16
-0.231, 0.146, 1.377, 15.519, -18.779, 2.122
-0.144, 0.158, 1.307, -14.748, 31.863, -11.664
-0.17, 0.142, 1.29, -14.305, 28.695, -12.176
-0.329, -0.264, 1.223, 12.947, -5.84, 1.794
-0.324, -0.245, 1.269, 20.603, -12.061, 2.176
0.283, 0.462, 1.179, 10.573, -2.855, -7.374
0.241, 0.5, 1.19, 15.313, 12.725, -5.649
-0.547, 0.221, 1.101, 10.519, -8.496, -1.359
-0.551, 0.187, 1.244, 6.115, 4.618, -8.924
-0.499, 0.178, 1.065, 5.137, 29.0, -6.351
-0.336, 0.281, 1.202, 10.794, 0.611, -0.336
-0.462, 0.332, 1.121, 9.183, 5.313, -0.641
-0.466, 0.33, 1.133, 8.634, 2.824, 1.87
-0.424, 0.335, 1.145, 7.992, 9.038, -3.779
-0.447, 0.323, 1.108, 7.687, 4.863, -3.053
-0.432, 0.301, 1.158, 5.321, 7.115, -3.023
-0.459, 0.309, 1.105, 8.71, -0.489, 1.679
-0.418, 0.3, 1.145, 9.092, 8.573, 0.16
-0.465, 0.306, 1.143, 9.29, 0.84, 0.71
-0.447, 0.315, 1.126, 9.099, 4.328, 0.366
-0.456, 0.303, 1.152, 9.359, 7.519, -1.344
-0.441, 0.306, 1.147, 9.176, 5.008, 0.649
-0.443, 0.3, 1.143, 9.244, 7.496, -1.092
-0.434, 0.305, 1.129, 9.443, 4.611, -0.664
-0.445, 0.318, 1.137, 8.573, 5.618, -3.122
-0.436, 0.312, 1.134, 8.931, 5.588, -0.672
-0.448, 0.306, 1.129, 8.84, 6.092, -0.924
-0.44, 0.31, 1.119, 9.229, 7.13, -1.023
-0.453, 0.301, 1.146, 9.237, 6.42, -1.084
-0.447, 0.312, 1.126, 8.992, 3.603, -1.076
-0.444, 0.309, 1.144, 9.221, 3.954, -1.122
-0.439, 0.312, 1.124, 8.344, 5.763, -2.061
-0.451, 0.31, 1.146, 9.809, 3.344, 0.496
-0.447, 0.304, 1.137, 9.344, 6.939, -1.267
-0.436, 0.315, 1.15, 15.832, 3.099, 0.924
-0.386, 0.333, 1.158, 8.053, 4.267, 5.786
-0.402, 0.358, 1.15, 6.756, 8.595, 2.863
-0.408, 0.325, 1.17, 8.145, 4.389, 8.45
-0.423, 0.328, 1.165, 10.962, 6.725, -0.71
-0.448, 0.316, 1.167, 10.015, 2.71, 1.237
-0.413, 0.341, 1.119, 8.229, 5.748, -2.359
-0.43, 0.341, 1.128, 8.84, 5.229, -1.397
-0.43, 0.335, 1.115, 8.542, 4.313, -1.824
-0.433, 0.345, 1.125, 7.832, 4.351, -1.229
-0.447, 0.325, 1.134, 10.504, 7.756, -1.023
-0.422, 0.333, 1.131, 10.252, 6.87, -0.794
-0.438, 0.317, 1.142, 10.221, 8.038, -1.679
-0.442, 0.318, 1.147, 8.595, 7.13, -1.954
-0.438, 0.331, 1.134, 9.008, 5.496, -1.26
-0.458, 0.322, 1.14, 9.122, 6.55, -0.947
-0.446, 0.322, 1.105, 9.389, 6.214, -0.145
-0.449, 0.311, 1.147, 9.511, 5.962, -1.519
-0.45, 0.329, 1.13, 9.122, 6.031, -0.687
-0.445, 0.317, 1.126, 9.481, 4.573, -0.557
-0.451, 0.305, 1.152, 9.611, 8.046, -1.763
-0.388, 0.332, 1.147, 14.863, 8.924, 1.191
-0.473, 0.273, 1.137, 13.824, 13.947, -2.405
-0.421, 0.304, 1.162, 8.656, 5.885, -0.305
-0.416, 0.3, 1.135, 9.145, 8.099, -2.282
-0.419, 0.313, 1.132, 9.58, 7.328, -0.733
0.226, 0.009, 1.332, 8.634, 5.748, -0.924
0.225, 0.01, 1.328, 8.786, 5.634, -1.015
0.23, 0.01, 1.325, 9.031, 6.107, -1.023
-0.59, 0.226, 1.026, 104.794, -134.969, -17.542
-0.276, 0.478, 0.916, -3.687, 161.328, -14.901
0.042, 0.729, 0.842, 18.664, 24.107, 20.756
-0.524, 0.364, 1.016, -30.664, -20.885, -15.71
-0.278, 0.466, 0.942, 22.725, 30.328, -2.588
-0.142, 0.291, 1.331, -27.359, -17.099, 18.962
-0.242, 0.495, 1.123, 43.786, 47.038, -5.626
-0.162, 0.424, 1.217, -3.008, -8.0, -2.588
-0.09, 0.361, 1.082, 26.847, 35.595, -2.534
-0.077, 0.311, 1.252, 46.176, 26.328, -15.473
-0.252, 0.453, 1.163, -15.42, -25.153, -0.725
-0.029, 0.343, 1.371, 39.863, 15.817, -4.16
-0.155, 0.394, 1.054, 27.145, 19.328, 1.618
-0.314, 0.245, 1.198, 98.992, -25.313, -17.733
-0.479, 0.129, 1.323, -17.427, 53.695, -6.176
-0.568, 0.47, 0.328, 78.267, 99.672, -0.84
-0.676, -0.026, 1.162, 12.947, -229.137, 4.565
-0.78, 0.429, 0.447, 47.275, -14.382, -14.832
-0.534, 0.285, 1.106, 73.626, -81.244, -8.618
-0.146, 0.349, 1.393, -49.321, 125.466, 15.763
-0.802, 0.227, 0.848, 61.87, -112.649, 7.87
-0.544, 0.399, 0.944, 14.977, 159.466, 12.649
-0.401, 0.33, 1.303, 48.519, 4.977, -14.824
-0.403, 0.277, 1.015, 28.733, 5.786, -20.084
-0.492, 0.345, 1.326, 9.176, 1.015, -3.557
-0.256, 0.305, 1.328, 18.405, 22.87, 19.511
-0.166, 0.31, 1.03, 5.267, -0.702, -19.458
-0.333, 0.235, 1.311, 2.84, -3.076, -24.832
-0.238, 0.247, 1.102, 19.229, -1.435, -20.786
-0.297, 0.469, 1.194, 59.458, 12.786, 4.947
-0.231, 0.615, 1.107, -31.237, 23.443, 19.351
-0.196, 0.621, 1.164, 10.786, 33.496, 14.405
-0.369, 0.553, 1.049, 46.466, 7.748, -1.405
-0.447, 0.565, 0.823, 28.145, -0.191, -14.969
-0.371, 0.473, 1.215, -5.939, 18.664, 13.969
-0.287, 0.505, 1.182, -15.588, 17.779, 18.061
-0.305, 0.444, 1.186, 11.244, 35.031, 11.122
-0.414, 0.459, 1.285, 24.221, -128.084, 20.237
-0.003, 0.689, 0.882, -37.962, -26.863, 8.603
0.066, 0.358, 1.354, 35.374, 44.29, -9.84
-0.027, 0.696, 1.095, -51.634, -35.183, 23.618
-0.055, 0.529, 1.154, 65.947, 70.634, -0.527
-0.67, 0.318, 1.172, -24.878, -93.282, -6.084
0.034, 0.23, 1.346, 59.038, 31.031, -10.664
-0.309, 0.659, 1.044, 1.374, 133.87, 13.519
-0.491, 0.551, 0.976, 40.718, -64.878, 2.74
-0.146, 0.641, 1.104, 99.092, 4.595, 14.748
-0.039, 0.31, 1.254, 77.649, -16.55, -10.893
0.092, 0.575, 1.07, 73.237, -9.626, 17.718
-0.117, -0.029, 1.269, -87.405, 62.015, -12.183
-0.018, 0.64, 0.949, 89.611, -43.916, 16.038
0.171, 0.86, 0.568, 74.153, -6.29, 5.84
0.165, 0.912, 1.045, -80.244, 106.145, 10.687
-0.295, 0.83, 0.9, 212.794, -94.382, 3.748
-0.443, 0.295, 1.066, 65.885, 43.107, 17.191
-0.293, 0.229, 1.327, 70.679, 3.221, -2.969
0.095, 0.679, 1.145, -32.565, 70.901, -6.832
-0.153, 0.508, 1.041, 59.588, 46.985, -4.611
-0.182, 0.782, 1.0, -37.481, 2.458, 10.626
-0.346, 0.785, 0.448, 39.137, 108.244, 12.893
-0.496, 0.717, 0.207, 34.679, 250.13, -0.069
-0.901, 0.25, 0.563, 60.176, -28.053, -16.038
-0.42, 0.553, 0.894, 77.87, 204.733, 9.649
-0.938, 0.281, 0.622, 20.481, 56.481, -15.756
-0.95, 0.06, 0.053, 35.13, -12.534, -1.336
0.263, 0.653, 1.024, 1.382, 14.809, 7.977
0.322, 0.708, 1.073, 16.13, 76.42, 13.031
-0.058, 0.483, 1.191, 62.336, 48.298, 3.504
-1.03, 0.213, 0.521, 17.466, -233.359, -7.786
-0.706, 0.458, 0.482, 32.969, -6.321, -18.481
-0.709, 0.22, 1.119, 36.443, -136.366, -7.87
-0.754, 0.179, -0.165, -34.031, -46.817, -15.756
-0.681, 0.158, 1.065, 16.397, -30.863, -17.779
-0.651, 0.227, 0.872, -61.519, -132.206, 13.557
-0.532, 0.174, 0.941, 32.603, 197.74, 16.015
-0.746, 0.102, 0.561, 34.237, 202.58, -15.008
-0.915, -0.106, 0.533, 86.282, -138.267, -16.092
-0.649, -0.148, 0.129, 19.374, 167.221, -20.893
-0.741, -0.033, 0.431, -18.099, 204.244, 10.58
-0.493, 0.125, 1.399, -77.565, 108.397, -20.229
-0.837, -0.023, 0.976, -37.847, 19.099, -6.046
-0.99, -0.055, -0.023, 52.992, 29.031, -0.718
-0.917, -0.287, 0.346, 90.313, -68.664, 6.145
-0.177, 0.254, 1.368, -0.71, 73.664, 14.359
-0.613, -0.51, 1.017, 82.359, -80.473, 3.496
-0.21, 0.228, 1.263, 110.557, 145.649, 19.84
-0.816, -0.642, 0.513, 120.29, -120.901, -12.473
-0.59, 0.172, 1.042, -2.489, 2.221, 9.122
-0.763, -0.186, 0.696, 25.229, 77.672, -3.595
-0.326, 0.24, 1.44, -104.16, 24.183, -13.145
-0.719, -0.046, 0.977, 36.191, -7.931, -19.351
-0.393, 0.301, 1.229, -3.481, 3.244, 6.893
-0.315, 0.451, 0.99, 16.565, 20.595, 9.901
-0.313, 0.206, 1.452, 11.275, 3.13, -19.504
-0.331, 0.263, 1.176, 7.0, 54.42, -14.168
-0.241, 0.32, 1.094, 18.214, 89.725, 5.511
-0.479, 0.291, 1.09, -19.084, 123.237, -5.74
-0.796, -0.241, 0.861, 106.153, -81.779, 8.916
-0.33, -0.052, 1.308, 20.397, 32.786, 9.191
-0.402, 0.211, 1.035, 3.855, 7.809, 13.985
-0.915, -0.164, 0.797, -16.298, 48.45, 14.55
-0.247, 0.134, 1.307, 17.405, 57.282, -2.336
-0.538, 0.09, 1.182, 67.351, -21.87, 11.267
-0.328, 0.218, 1.13, -4.053, 28.863, 16.115
-0.534, 0.069, 1.23, 7.321, 1.328, 19.573
-0.433, 0.024, 1.27, -24.16, -0.58, 17.786
-0.559, -0.29, 1.265, 37.321, 20.786, -10.489
-0.273, 0.493, 1.056, -14.084, -36.458, 13.42
-0.655, -0.105, 1.025, 78.809, -76.344, 20.313
-0.677, -0.284, 0.852, 39.565, 36.466, -6.221
-0.327, -0.136, 1.306, 69.489, -44.45, -10.573
-0.075, 0.385, 1.405, -41.198, 108.534, 9.618
-0.782, -0.019, 0.824, 115.382, -13.0, -21.588
-0.57, 0.596, 0.918, -47.244, 76.893, 5.809
-0.679, -0.132, 0.997, -87.076, 120.802, 11.87
-0.333, 0.171, 1.204, -87.29, 155.099, -6.527
-0.816, -0.221, 0.882, 24.939, -29.069, 7.55
-0.916, -0.01, 0.95, 169.924, -39.664, 5.099
-0.598, 0.283, 0.968, 40.534, -32.359, -18.084
-0.042, 0.825, 0.996, -33.29, 63.252, 10.802
-0.518, 0.152, 1.125, 11.489, 1.55, -7.74
-0.466, 0.284, 1.106, -10.931, 19.58, 8.794
-0.439, 0.368, 1.087, 5.931, 2.664, 15.046
-0.425, 0.452, 1.267, 2.282, 92.321, 3.55
-0.471, 0.464, 1.059, 5.496, 5.885, 15.023
-0.349, 0.548, 1.037, 20.168, 1.496, 11.183
0.103, 0.494, 1.18, 8.74, 6.275, -2.71
0.081, 0.443, 1.221, 8.947, 6.626, -1.015
0.382, 0.733, 0.657, -43.87, 4.718, -23.053
0.277, 0.489, 1.079, -48.168, 72.611, 90.756
0.442, 0.509, 0.317, 42.969, -57.038, 63.939
0.078, 1.04, 0.677, 30.305, 36.237, 68.756
-0.344, 0.838, 1.606, -14.206, -78.939, 114.763
0.248, 0.332, 1.293, 97.275, 65.221, 128.321
0.206, 0.233, 1.266, 27.832, -14.061, -83.031
0.134, 0.467, 1.106, 25.725, 9.466, 117.534
0.192, 0.422, 1.111, 8.26, 53.321, 114.237
0.244, 0.158, 1.277, 26.672, 28.137, 75.802
0.222, 0.521, 1.088, 3.321, 43.977, 84.626
0.159, 0.555, 1.108, 58.435, 118.198, 101.252
0.126, 0.811, 0.971, 27.076, 71.298, 90.237
0.0, 0.0, 0.0, 0.0, 0.0, 0.0
0.009, -0.002, 1.334, 9.069, 5.817, -0.771
0.011, 0.007, 1.325, 9.046, 5.947, -0.985
0.0, 0.0, 0.0, 0.0, 0.0, 0.0
0.015, 0.006, 1.333, 8.855, 5.412, -0.725
0.015, 0.006, 1.338, 8.817, 5.55, -0.855
0.021, 0.004, 1.334, 8.733, 5.534, -0.84
0.01, 0.0, 1.336, 8.962, 6.061, -0.87
0.016, -0.002, 1.337, 8.878, 5.489, -0.962
0.0, 0.0, 0.0, 0.0, 0.0, 0.0
0.013, -0.002, 1.33, 8.756, 5.42, -0.649
0.0, 0.0, 0.0, 0.0, 0.0, 0.0
0.26, 0.242, 1.303, 27.733, 5.29, -7.939
0.128, 0.342, 1.094, 5.069, 19.099, -0.237
0.12, 0.563, 1.194, -117.176, 11.504, -50.573
0.105, 0.003, 1.286, -44.344, -11.191, 42.962
0.399, 0.299, 1.309, 61.817, -21.71, 114.336
0.321, 0.311, 1.233, 45.427, 1.725, 82.847
0.492, -0.261, 1.202, -37.58, 12.359, -72.405
0.266, -0.097, 1.287, 51.809, -13.58, 135.557
0.194, -0.329, 1.253, -35.13, 73.672, -99.885
0.398, -0.025, 1.149, 6.305, 7.985, 57.313
0.207, -0.385, 1.132, 24.122, -16.282, 67.794
0.386, 0.296, 1.258, -42.702, 120.298, -60.771
0.215, 0.178, 1.41, -9.733, -1.344, -40.145
0.002, 0.078, 1.469, -20.458, 5.618, 39.137
0.452, 0.797, 0.915, 34.695, -41.382, 9.718
0.348, 1.011, 0.4, 37.099, -16.656, 42.901
0.308, 1.029, 0.455, 31.679, 30.855, 48.595
0.198, 1.061, 0.363, 30.405, -0.779, 68.939
0.023, 1.294, 0.435, 20.435, -3.603, 34.29
0.032, 1.106, 0.549, 2.053, -57.16, 18.908
0.106, 1.205, 0.592, 37.924, 43.336, 57.321
-0.073, 1.312, 0.717, -63.496, -99.954, -61.466
0.374, 0.43, 0.568, 69.802, 50.42, 23.015
0.0, 0.0, 0.0, 0.0, 0.0, 0.0
-0.299, 0.943, 0.782, 98.656, 147.893, 114.992
0.044, 0.926, 0.801, 5.229, -87.031, -40.809
-0.012, 1.073, 0.597, 6.015, 22.344, 9.397
-0.07, 0.875, 1.353, 57.489, 30.099, -3.405
0.027, 0.963, 0.464, 40.542, 4.443, 0.038
0.026, 0.944, 0.614, -9.924, 69.687, 17.153
-0.026, 0.907, 0.735, 1.878, -62.221, -19.244
-0.003, 0.503, 1.179, -34.55, 21.718, 93.969
