accelX,accelY,accelZ,gyroX,gyroY,gyroZ
0.082, 0.937, 0.425, 22.672, -5.756, -2.313
0.04, 0.965, 0.448, 1.954, 18.748, 3.221
0.033, 1.009, 0.53, 3.656, 49.641, 3.046
0.013, 0.996, 0.561, 11.191, 55.824, 5.557
0.074, 1.008, 0.516, 25.29, 21.489, 0.42
0.053, 0.973, 0.429, -19.298, 49.756, 15.076
0.011, 0.994, 0.454, -25.977, 45.504, 28.099
0.175, 0.99, 0.458, -5.244, 43.191, 0.901
0.096, 0.979, 0.517, -18.931, 55.351, -9.649
0.033, 0.958, 0.485, -26.237, 70.756, -2.672
0.0, 0.919, 0.634, 6.397, 51.443, -0.672
-0.069, 0.914, 0.624, 18.275, 41.756, 9.191
-0.065, 0.948, 0.55, 9.0, 18.679, 3.206
-0.121, 0.966, 0.575, 5.916, 36.397, -12.84
-0.102, 0.823, 0.732, -14.466, 37.817, 1.855
-0.16, 0.826, 0.785, -2.969, 34.206, 4.221
-0.179, 0.849, 0.773, 8.313, 27.718, 13.374
-0.223, 0.875, 0.663, 13.16, 22.26, 15.969
-0.217, 0.889, 0.696, 20.26, 24.519, 13.534
0.277, 0.892, 0.505, 16.511, 19.664, 14.336
0.162, 0.989, 0.522, -4.885, 58.061, -18.076
0.145, 0.962, 0.482, 12.656, -93.443, -25.924
0.163, 1.087, 0.595, 2.58, -65.397, -4.656
0.256, 0.938, 0.684, 15.305, -100.924, -37.496
0.116, 0.969, 0.47, 9.053, -42.13, -17.519
0.081, 0.958, 0.408, 16.168, -45.069, -2.336
0.229, 0.904, 0.491, 16.389, -117.534, -31.244
0.158, 1.018, 0.513, 12.58, -123.687, -28.718
0.299, 1.104, 0.659, -2.84, -86.336, 3.107
0.128, 0.847, 0.824, -20.992, -41.282, -6.015
0.127, 0.983, 0.62, 10.847, -42.458, -0.046
0.281, 0.713, 0.698, -1.832, -67.725, -54.13
0.497, 0.904, 0.594, 6.282, -125.855, -48.985
0.121, 0.891, 0.636, 23.656, -125.237, -22.336
0.088, 0.906, 0.664, 3.534, -55.71, -38.061
0.057, 0.859, 0.598, -1.031, -35.969, -22.092
0.188, 0.855, 0.514, 31.252, -0.954, -4.137
0.082, 0.893, 0.546, 19.939, 28.336, 6.321
0.106, 0.931, 0.547, 16.595, 27.603, 16.962
0.08, 0.919, 0.535, 21.534, 21.687, 8.687
0.185, 0.817, 0.684, 2.794, -12.252, -7.611
0.102, 1.005, 0.538, 11.344, -9.855, 0.534
0.135, 1.04, 0.581, -6.435, 6.878, 1.344
0.083, 0.858, 0.567, 20.878, -16.947, -0.435
0.09, 0.915, 0.629, -11.947, 17.0, -0.55
0.018, 0.844, 0.679, -0.672, -9.168, 1.366
0.261, 1.07, 0.826, -21.275, 3.832, 12.908
0.141, 0.784, 0.833, 7.962, 6.611, -24.534
0.322, 0.875, 0.467, -12.603, -42.008, -29.679
0.265, 1.028, 0.487, 18.244, -30.511, -25.305
0.156, 0.807, 0.662, 13.26, 87.13, 37.527
0.132, 0.827, 0.645, 16.244, 82.389, 28.198
0.126, 0.858, 0.67, 20.229, 73.924, 30.672
0.268, 0.881, 0.581, 26.771, 42.985, 4.893
0.328, 0.916, 0.602, 6.87, 65.779, 14.824
0.255, 0.877, 0.675, 5.947, 43.237, 10.496
0.244, 1.087, 0.702, 14.634, 35.626, 9.954
0.265, 0.761, 0.76, 12.87, 34.29, 5.74
0.209, 0.953, 0.616, 13.618, 23.786, 10.504
0.308, 0.834, 0.72, 14.267, 14.481, 2.84
0.235, 0.792, 0.724, 19.511, 1.183, -10.634
0.208, 0.811, 0.69, 28.183, -6.382, -20.527
0.141, 0.708, 0.696, 27.71, 62.206, -0.969
0.232, 0.944, 0.603, 18.733, -23.87, -34.893
0.09, 0.828, 0.664, 20.29, -51.809, -28.473
0.159, 0.879, 0.566, 27.885, -69.122, -35.504
0.169, 0.92, 0.501, 21.176, -67.733, -34.718
0.353, 1.009, 0.954, -2.168, -6.527, 24.656
0.286, 1.002, 0.968, 6.74, 14.015, 24.542
0.151, 0.736, 0.789, -15.366, 32.061, 17.344
0.209, 0.782, 0.87, -36.84, 33.763, 46.435
0.262, 0.875, 0.816, -14.206, 22.885, 27.748
0.251, 0.894, 0.842, -12.771, 27.031, 21.305
0.27, 1.062, 0.927, 26.061, -4.954, -10.878
0.145, 0.725, 0.843, -48.046, 35.046, 47.817
0.325, 0.834, 0.723, 52.55, -28.046, -43.435
0.289, 0.659, 0.701, -47.397, -102.939, -31.366
0.395, 0.915, 0.787, 18.771, 30.115, -16.214
0.344, 0.873, 0.853, 32.076, 16.611, -17.13
0.345, 0.875, 0.807, 49.885, -5.863, -22.405
0.272, 0.805, 0.787, 62.473, 1.992, -41.672
0.292, 0.785, 0.758, 59.298, 9.405, -28.427
0.236, 0.738, 0.731, 56.145, 1.214, -25.489
0.233, 0.732, 0.632, 8.176, -29.046, 13.16
0.252, 0.729, 0.656, -25.069, 11.481, 37.153
0.186, 0.85, 1.004, -26.069, 14.573, 30.29
0.296, 1.036, 1.061, 45.725, 10.504, 37.221
0.355, 0.856, 1.014, 47.588, 92.924, 7.023
0.313, 0.823, 1.02, 66.229, 73.153, 7.13
0.348, 0.849, 0.975, 77.26, 64.176, 1.374
0.22, 0.579, 0.899, 38.771, 122.153, 23.84
0.146, 0.845, 0.829, 5.443, 30.832, 15.092
0.171, 0.796, 0.448, 63.931, -30.008, -9.954
0.209, 0.847, 0.9, -51.137, -78.397, -10.771
0.086, 0.789, 0.44, -21.695, -34.275, 20.885
0.138, 0.716, 0.878, 47.176, -38.061, -27.496
0.213, 0.698, 0.75, -2.214, 25.389, -15.557
0.232, 0.907, 0.924, -13.58, 64.397, 43.298
0.243, 0.876, 0.819, -11.176, 79.0, 37.405
0.25, 0.652, 0.687, -2.45, -16.29, -25.496
0.259, 0.76, 0.878, -28.252, -15.16, 4.504
0.188, 0.501, 1.376, -62.473, 24.489, 24.412
0.258, 0.493, 1.396, -56.908, 10.252, 26.344
0.211, 0.248, 1.62, -31.313, 13.664, -1.916
0.305, 0.799, 0.96, -78.504, 14.924, -6.901
0.305, 0.704, 1.057, -111.275, 42.985, 33.985
0.479, 0.43, 1.303, 16.641, 11.985, -20.412
0.227, 0.456, 1.018, 19.282, -4.817, -14.183
0.371, 0.432, 1.181, 56.061, 44.916, 29.908
0.439, 0.421, 1.319, -6.038, 27.817, 42.16
0.156, 0.156, 1.071, -0.115, -1.435, 7.366
0.245, 0.374, 1.375, -27.008, -27.053, 6.595
0.337, 0.468, 1.468, -5.275, -46.916, 9.58
0.342, 0.502, 1.559, 15.298, -43.74, 6.282
0.466, 0.484, 1.596, -9.29, 28.603, -13.55
0.383, 0.421, 1.55, 36.092, 27.985, -31.29
0.434, 0.484, 1.461, 62.328, 10.275, -39.313
0.401, 0.45, 1.216, 81.847, 50.672, -41.031
0.405, 0.467, 1.168, 79.344, 54.733, -36.244
0.388, 0.462, 1.118, 73.992, 52.008, -19.924
0.262, 0.388, 0.861, -14.115, -19.977, -74.557
0.573, 0.299, 1.101, 42.824, -21.26, 4.42
0.158, 0.34, 1.265, 108.71, -71.618, -38.916
0.205, 0.348, 1.222, 77.802, 3.321, -33.794
0.565, 0.792, 0.764, 19.496, -40.267, -54.901
0.331, 0.654, 1.137, 42.305, -23.191, -27.763
0.315, 0.44, 1.37, 63.649, -1.496, -8.863
0.334, 0.368, 1.283, 57.511, 1.725, -15.092
0.269, 0.315, 1.185, 54.534, 7.008, -29.511
0.107, 0.513, 1.058, -27.206, 40.542, 24.679
0.405, 0.655, 1.131, 35.145, -94.29, -37.832
0.563, 0.795, 0.975, 14.137, -10.336, -6.817
0.556, 0.792, 0.943, 2.931, 6.16, -21.313
0.58, 0.751, 0.999, -7.244, 23.061, -32.908
0.483, 0.752, 1.258, -94.634, -37.359, 11.786
0.408, 0.669, 1.118, 119.649, -52.084, 1.573
0.463, 0.694, 0.996, 120.115, -58.435, -16.573
-0.067, 0.416, 1.175, -73.282, -15.855, -4.038
-0.019, 0.488, 1.244, -71.496, -3.496, 18.336
0.066, 0.738, 1.04, -11.527, -74.023, 15.107
-0.153, 0.722, 1.393, 59.588, -30.489, -31.0
-0.104, 0.683, 1.299, 86.58, 68.137, -3.038
0.566, 0.739, 1.088, 17.023, -21.122, -40.45
0.415, 0.384, 1.258, -45.649, 31.466, 19.046
0.187, 0.712, 1.358, 27.443, -62.244, -23.382
0.048, 0.485, 1.097, 58.969, 40.962, 33.412
0.19, 0.241, 1.0, 54.183, 19.321, 22.908
0.229, 0.215, 0.988, 45.405, 39.466, 14.893
0.222, 0.241, 0.991, 37.802, 35.351, 10.244
0.393, 0.399, 1.243, -12.893, 44.779, 58.901
0.135, 0.273, 1.533, -2.244, -4.672, -10.443
0.082, 0.198, 1.424, 16.084, -28.313, -27.137
0.678, 0.67, 1.222, 25.16, -42.908, -40.267
0.145, 0.187, 1.354, -81.221, -3.298, 25.29
-0.399, 0.614, 0.98, -15.679, 56.603, 23.687
0.107, 0.951, 0.571, 36.763, 26.947, 17.405
-0.209, 0.864, 0.651, 29.031, -58.298, -21.985
-0.388, 0.833, 0.821, 12.962, 19.687, -1.718
-0.038, 0.882, 0.405, -0.893, 51.168, 22.802
0.025, 0.906, 0.662, 20.771, -21.084, -15.221
-0.152, 0.808, 0.719, -17.954, 16.55, -12.611
-0.109, 0.403, 1.351, 1.962, 0.527, -24.466
-0.435, 0.189, 1.319, 32.809, 11.122, 25.496
-0.267, 0.336, 1.229, -41.718, -31.038, 5.084
-0.167, 0.324, 1.215, 70.71, 25.16, 23.786
-0.03, 0.318, 1.57, -49.679, -18.519, 5.55
-0.62, 0.499, 0.955, 32.786, 27.427, 2.649
-0.748, 0.323, 0.567, 17.038, -5.023, -35.29
-1.017, 0.095, 0.608, 36.794, 17.924, 30.473
-0.797, 0.325, 0.729, -33.198, 6.183, -34.405
-0.375, 0.515, 0.683, 38.603, 13.382, -36.099
-0.676, 0.342, 0.861, 55.779, 28.931, 7.473
-1.122, 0.171, 0.635, 12.061, -22.221, 8.344
-0.02, 0.85, 0.5, 105.275, -24.626, 10.397
-0.489, 0.747, 0.171, 41.87, 11.344, -4.664
-0.989, -0.206, -0.444, 86.55, -148.878, 32.496
-0.734, 0.01, 0.052, 61.466, 19.817, -17.656
-0.873, 0.121, 0.034, 54.969, 35.153, -44.168
-0.692, -0.141, 0.075, 55.168, 35.099, 6.305
-0.816, -0.24, -0.113, -7.008, 35.779, 43.031
-1.178, 0.073, 0.107, -36.458, -10.74, -40.519
-0.807, 0.03, 0.201, 45.71, 5.588, -30.244
-0.747, 0.009, -0.033, -46.565, 53.931, 34.122
-0.963, 0.104, 0.495, 43.305, 19.595, -9.802
-0.436, 0.277, 0.753, 14.435, 25.481, -16.42
-0.513, 0.303, 0.889, 14.992, 67.015, 8.473
-0.911, 0.158, 1.244, 50.748, 34.672, 27.45
-1.198, -0.189, 1.068, 59.481, 17.26, 21.87
-0.916, 0.038, 0.976, -41.382, -29.809, -8.359
-0.46, 0.058, 0.838, 27.305, 0.412, -49.947
-0.581, 0.094, 1.147, -37.443, 8.237, 9.962
-0.725, 0.011, 1.025, 62.901, 35.916, 18.473
-0.424, 0.112, 0.818, 20.58, 1.824, -37.481
-0.638, -0.122, 1.774, 22.496, -25.214, -28.229
-0.341, 0.293, 1.0, -72.725, -16.84, 5.763
-0.554, 0.114, 1.105, -70.45, 7.496, 8.603
-0.757, -0.088, 1.58, 62.992, 15.611, 1.992
-1.123, -0.278, 1.177, 55.939, -16.061, 23.023
-0.592, 0.031, 1.477, -35.336, 6.008, 17.985
-0.599, 0.048, 1.422, 8.687, 22.237, 41.786
-0.153, 0.194, 1.314, 54.603, 23.695, 45.031
-0.561, 0.049, 1.255, 99.198, 24.344, 12.26
-0.405, 0.242, 0.794, 57.832, 45.076, 9.885
-0.364, 0.244, 0.744, 62.626, 48.947, 9.718
-0.383, 0.297, 1.055, -56.985, -14.206, 15.618
-0.062, 0.213, 1.486, 58.145, 13.885, 39.145
-0.332, 0.101, 0.838, -14.626, 8.061, 35.733
-0.285, 0.319, 0.832, -23.656, -28.756, 8.84
-0.22, 0.329, 0.924, -9.687, -23.336, -33.71
-0.639, 0.126, 1.438, -17.855, -7.038, -44.046
-0.394, 0.269, 0.918, -41.13, -3.817, 18.191
-0.214, 0.267, 0.976, -16.252, 9.176, 35.015
-0.383, -0.019, 1.328, 60.885, 40.504, -4.756
-0.678, -0.005, 1.206, 56.153, 42.351, -44.427
-0.22, 0.303, 0.98, 43.092, 71.504, -15.084
-0.592, 0.121, 1.424, 62.672, -131.099, -47.824
-0.437, 0.265, 0.896, 16.901, 60.832, -53.916
-0.297, 0.302, 0.669, 10.885, 1.298, -19.0
-0.03, 0.337, 1.308, -32.527, 56.412, 47.511
-0.28, 0.437, 0.903, 39.924, 30.244, -28.779
-0.315, 0.279, 1.3, 3.595, 30.206, -13.473
0.031, 0.288, 1.049, 2.382, -10.916, 11.519
-0.763, 0.084, 1.224, 4.244, -23.382, -8.359
-0.656, 0.094, 1.561, 4.74, 3.679, -37.84
0.012, 0.448, 1.225, -26.13, -45.634, 50.55
-0.573, 0.51, 1.663, 4.183, -42.183, -10.0
-0.412, 0.135, 0.712, -2.366, -10.267, 5.496
-0.054, 0.185, 1.577, 2.58, -94.954, 6.55
-0.141, 0.105, 1.855, -25.45, 6.214, -8.008
-0.315, 0.25, 0.691, 85.267, 67.176, -43.015
-0.544, -0.233, 0.96, 53.092, 60.275, 34.153
-0.291, 0.123, 0.933, -1.634, 7.122, 19.397
-0.118, 0.318, 1.485, -21.481, -25.153, 28.58
-0.423, 0.126, 0.801, 25.221, -8.74, 8.053
-0.492, 0.063, 0.839, 18.595, -27.084, -34.748
-0.626, -0.367, 0.817, 54.153, 48.931, 21.359
-0.538, 0.109, 1.139, 26.092, 41.748, 31.099
-0.255, 0.052, 1.566, 11.542, 31.13, 8.679
-0.01, 0.106, 1.418, 22.794, 46.718, 26.473
-0.19, 0.122, 1.499, -14.802, -31.786, -14.847
-0.209, 0.181, 1.618, -26.664, -5.229, 13.366
-0.159, 0.118, 1.504, 23.947, 37.221, 2.84
-0.15, 0.239, 1.72, -1.099, -10.046, 26.336
-0.151, 0.121, 1.058, 46.137, 40.076, 22.985
0.093, 0.218, 1.176, 13.305, 61.405, 22.634
-0.104, 0.179, 1.249, 6.061, -37.412, -3.053
-0.194, 0.165, 1.762, 0.389, 10.863, -34.802
-0.026, -0.023, 1.007, 27.336, 57.924, -5.427
-0.099, 0.156, 1.177, -33.351, -42.191, 47.374
0.008, -0.24, 1.567, -17.16, 3.824, -42.702
-0.044, -0.057, 1.227, 25.076, 49.29, -8.916
0.066, 0.142, 1.178, -15.053, -17.733, 65.649
0.111, -0.023, 0.938, 31.267, 85.954, -14.901
-0.064, 0.355, 1.836, -65.817, -50.481, -33.824
-0.408, -0.243, 1.153, 65.107, 61.176, -40.595
-0.263, -0.029, 0.819, 22.771, -5.145, 13.489
-0.075, 0.336, 1.577, -30.389, -46.527, 10.656
-0.302, -0.113, 1.464, 46.519, 40.756, 18.649
-0.004, -0.099, 1.166, 6.298, 43.58, 6.344
0.117, -0.027, 1.366, -11.084, -53.229, 23.725
-0.157, -0.028, 1.513, 78.962, 80.336, -1.183
-0.245, -0.024, 0.721, 31.954, -1.969, 4.649
-0.012, 0.133, 1.352, -43.176, -40.015, 6.649
-0.118, 0.106, 1.134, 63.672, 75.939, -36.618
-0.342, 0.063, 1.403, -112.74, -55.832, -4.0
-0.194, 0.036, 1.487, 59.046, 34.153, 27.229
-0.158, -0.091, 0.932, 34.229, 1.626, -28.489
0.025, 0.04, 1.088, -1.954, 9.573, 19.71
0.086, -0.093, 1.511, 31.366, 39.969, -27.435
-0.101, 0.086, 1.313, -34.947, -33.595, -0.595
-0.056, -0.101, 1.213, 38.0, 47.496, -21.29
-0.013, -0.158, 1.026, 45.664, 41.076, 5.137
-0.572, 0.317, 1.618, 25.305, 63.053, 19.214
-0.112, 0.463, 0.819, -26.756, -14.458, -2.45
-0.322, 0.388, 0.968, 79.954, 43.817, 11.031
-0.42, 0.234, 1.783, 21.916, -14.145, -15.412
-0.314, 0.541, 0.704, -33.473, -1.015, 25.634
-0.047, 0.545, 0.845, -28.176, -3.809, 12.237
-0.192, 0.224, 1.24, -34.931, -21.435, -15.969
-0.395, 0.172, 0.757, 13.198, 14.069, 24.344
-0.275, 0.197, 1.238, -57.863, -53.198, -44.672
-0.209, -0.198, 1.563, 31.015, 51.412, -39.634
-0.26, 0.004, 1.531, 46.107, 60.359, 35.809
-0.306, 0.115, 1.217, -49.832, -7.427, -37.191
-0.458, -0.127, 1.579, -29.901, -7.092, 24.672
-0.458, 0.316, 0.972, 74.985, 28.664, -10.069
-0.511, 0.317, 0.839, 71.168, 51.13, 3.298
-0.4, 0.283, 0.871, -1.702, -17.16, -1.802
-0.456, -0.006, 1.773, -56.794, -11.191, -6.542
-0.231, 0.245, 1.324, -54.618, -57.13, 17.168
-0.168, 0.372, 0.969, -24.702, 22.153, -34.412
-0.192, 0.25, 1.233, 57.13, 19.542, -12.473
-0.564, -0.072, 1.519, 34.695, 31.176, 3.542
-0.138, 0.227, 1.206, 71.435, 43.153, -19.107
-0.349, 0.284, 1.349, -60.244, -54.786, 4.13
0.26, 0.367, 1.64, -10.107, 8.206, 13.992
0.27, 0.162, 1.615, 1.893, 7.725, 11.282
0.165, 0.278, 1.449, 5.221, -10.687, 15.046
0.063, 0.179, 1.383, -24.733, -22.237, 15.885
-0.02, 0.019, 1.071, 14.924, 4.344, -11.45
-0.035, 0.051, 1.101, 23.718, 31.931, -30.137
-0.154, -0.1, 1.097, 41.122, 77.786, -28.802
-0.239, -0.229, 1.308, 43.885, 27.267, 7.794
0.024, 0.082, 1.428, -25.015, -45.824, 23.435
0.156, 0.08, 1.155, 15.244, 8.366, 16.221
-0.144, 0.062, 1.16, 23.74, 27.336, -27.565
-0.279, -0.035, 1.204, 40.359, 24.122, -2.702
-0.226, 0.016, 1.319, 14.786, 12.74, 25.641
-0.096, 0.118, 1.428, 14.038, 1.206, 16.893
-0.406, 0.303, 1.178, 40.015, 11.107, -7.748
-0.407, 0.194, 1.01, 35.939, 18.718, 21.832
-0.381, 0.051, 1.055, 6.45, 47.84, -18.427
-0.435, 0.082, 1.187, 2.611, 38.779, 45.992
-0.421, -0.229, 1.37, 80.16, 2.977, 8.053
-0.86, 0.808, 0.249, -16.473, 23.557, 23.748
-0.701, 0.875, 0.29, -16.695, 26.466, -18.725
-0.596, 0.57, 0.157, -9.16, -1.412, 9.023
-0.676, 0.696, 0.309, -14.756, 18.511, 10.542
-0.646, 0.628, 0.323, -18.672, 27.626, 8.855
-0.503, 0.661, 0.408, 34.885, -0.336, 6.649
-0.569, 0.632, 0.25, 40.397, -12.74, -6.099
-0.609, 0.553, 0.163, 22.229, 2.015, -7.427
-0.485, 0.591, 0.157, -14.405, 25.519, 9.992
-0.551, 0.641, 0.423, 24.794, -8.221, 2.664
-0.497, 0.579, 0.038, 29.099, -22.244, -2.397
-0.728, 0.556, -0.131, 55.939, -6.466, -6.885
-0.536, 0.444, 0.12, -14.992, 36.641, -20.672
-0.603, 0.54, 0.422, 20.534, -85.511, 0.473
-0.342, 0.863, 0.603, 8.779, 0.687, 34.878
-0.09, 1.091, 0.401, 0.313, 34.908, 3.855
0.085, 0.802, 0.354, 15.397, 35.84, 1.473
0.052, 0.754, 0.474, -17.863, -30.344, 2.275
-0.069, 1.173, 0.336, 16.321, -16.847, -6.687
0.023, 0.804, 0.5, 25.275, 32.794, 0.099
0.148, 0.856, 0.488, 19.863, 17.359, 6.198
-0.175, 1.036, 0.613, 2.84, 38.977, 1.359
-0.155, 0.828, 0.565, 1.359, 38.817, 3.115
-0.073, 0.842, 0.56, -12.947, 20.679, 23.466
-0.339, 0.917, 0.886, 24.0, -40.748, -8.863
-0.188, 0.709, 0.648, -5.435, 36.618, 19.336
-0.108, 0.814, 0.613, 22.603, 32.038, 4.267
0.08, 0.888, 0.671, 2.282, 38.901, 4.519
-0.208, 0.894, 0.682, 18.183, 41.122, 2.832
-0.213, 0.874, 0.59, 2.046, -37.405, 4.519
-0.25, 1.08, 0.633, -7.053, 31.664, 22.176
-0.097, 0.871, 0.47, 0.962, 34.634, 21.061
-0.001, 0.999, 0.57, 9.885, 32.267, 22.061
-0.351, 0.86, 0.522, -2.664, 14.458, 19.29
-0.245, 0.997, 0.402, -20.115, 28.641, 9.908
-0.125, 0.85, 0.575, 7.878, -13.802, -3.634
-0.26, 0.831, 0.657, 17.382, -18.176, -20.458
-0.024, 0.918, 0.46, 1.771, 32.985, 17.137
-0.001, 0.853, 0.484, 2.176, -17.878, -8.916
-0.043, 1.146, 0.377, 14.718, 39.84, -13.267
0.037, 0.875, 0.353, 34.603, 30.221, -12.458
-0.097, 0.777, 0.533, 7.473, -18.244, -18.122
-0.109, 0.76, 0.444, -1.809, 45.878, 8.0
-0.008, 0.886, 0.554, -6.794, 36.145, 17.0
-0.123, 0.724, 0.609, 8.794, -19.191, -24.099
-0.166, 0.744, 0.716, -5.267, -17.298, -8.313
-0.109, 1.048, 0.549, -4.931, -21.16, -2.748
-0.03, 1.106, 0.686, -6.718, 31.565, 16.168
-0.077, 1.022, 0.6, 0.802, -6.473, 7.168
-0.107, 1.027, 0.554, 15.267, -23.626, -6.832
-0.321, 0.734, 0.841, 6.359, -15.962, -20.115
-0.132, 0.694, 0.699, -3.198, 15.664, -3.107
-0.09, 1.018, 0.649, 7.687, -0.977, -1.947
-0.171, 0.865, 0.604, 29.328, -35.0, -27.153
-0.125, 0.772, 0.701, 6.389, -40.351, -32.382
-0.105, 0.901, 0.705, -17.702, 30.924, -15.267
-0.269, 1.009, 0.983, -3.954, 3.244, -18.214
-0.305, 0.97, 0.964, -2.435, 9.023, 20.046
-0.16, 0.694, 0.877, 15.878, 22.489, 16.916
-0.125, 0.656, 0.78, -7.351, 34.191, 3.153
-0.191, 1.144, 0.933, -16.214, -33.374, -9.321
-0.22, 0.787, 0.776, 7.084, -10.244, 9.397
-0.175, 0.859, 0.835, 7.229, -21.481, 2.26
-0.077, 0.674, 0.878, 53.435, 1.092, -10.908
-0.159, 0.815, 0.749, -13.641, 56.504, 61.0
-0.044, 0.603, 0.757, 4.748, 61.298, 4.992
-0.058, 0.71, 0.877, 40.702, -56.763, 3.0
-0.404, -0.132, 1.219, 2.366, -0.198, -28.427
